{
  "resourceType": "Bundle",
  "meta": {
    "profile": [
      "https://fhir.kbv.de/StructureDefinition/KBV_PR_ERP_Bundle|1.3"
    ],
    "lastUpdated": "2025-10-30T09:30:00Z"
  },
  "entry": [
    {
      "resource": {
        "id": "ed52c1e3-b700-4497-ae19-b23744e29876",
        "meta": {
          "profile": [
            "https://fhir.kbv.de/StructureDefinition/KBV_PR_ERP_Composition|1.3"
          ]
        },
        "title": "elektronische Arzneimittelverordnung",
        "subject": {
          "reference": "Patient/9774f67f-a238-4daf-b4e6-679deeef3811"
        },
        "type": {
          "coding": [
            {
              "code": "e16A",
              "system": "https://fhir.kbv.de/CodeSystem/KBV_CS_SFHIR_KBV_FORMULAR_ART"
            }
          ]
        },
        "extension": [
          {
            "valueCoding": {
              "code": "00",
              "system": "https://fhir.kbv.de/CodeSystem/KBV_CS_SFHIR_KBV_STATUSKENNZEICHEN"
            },
            "url": "https://fhir.kbv.de/StructureDefinition/KBV_EX_FOR_Legal_basis"
          }
        ],
        "section": [
          {
            "code": {
              "coding": [
                {
                  "code": "Prescription",
                  "system": "https://fhir.kbv.de/CodeSystem/KBV_CS_ERP_Section_Type"
                }
              ]
            },
            "entry": [
              {
                "reference": "MedicationRequest/e930cdee-9eb5-4b44-88b5-2a18b69f3b9a"
              }
            ]
          },
          {
            "code": {
              "coding": [
                {
                  "code": "Coverage",
                  "system": "https://fhir.kbv.de/CodeSystem/KBV_CS_ERP_Section_Type"
                }
              ]
            },
            "entry": [
              {
                "reference": "Coverage/1b1ffb6e-eb05-43d7-87eb-e7818fe9661a"
              }
            ]
          }
        ],
        "status": "final",
        "author": [
          {
            "type": "Practitioner",
            "reference": "Practitioner/20597e0e-cb2a-45b3-95f0-dc3dbdb617c3"
          },
          {
            "identifier": {
              "value": "Y/400/1910/36/346",
              "system": "https://fhir.kbv.de/NamingSystem/KBV_NS_FOR_Pruefnummer"
            },
            "type": "Device"
          }
        ],
        "date": "2025-10-30T09:30:00Z",
        "custodian": {
          "reference": "Organization/cf042e44-086a-4d51-9c77-172f9a972e3b"
        },
        "resourceType": "Composition"
      },
      "fullUrl": "http://pvs.praxis-topp-gluecklich.local/fhir/Composition/ed52c1e3-b700-4497-ae19-b23744e29876"
    },
    {
      "resource": {
        "id": "e930cdee-9eb5-4b44-88b5-2a18b69f3b9a",
        "meta": {
          "profile": [
            "https://fhir.kbv.de/StructureDefinition/KBV_PR_ERP_Prescription|1.3"
          ]
        },
        "intent": "order",
        "authoredOn": "2025-10-30",
        "subject": {
          "reference": "Patient/9774f67f-a238-4daf-b4e6-679deeef3811"
        },
        "substitution": {
          "allowedBoolean": true
        },
        "extension": [
          {
            "valueCoding": {
              "code": "0",
              "system": "https://fhir.kbv.de/CodeSystem/KBV_CS_FOR_StatusCoPayment"
            },
            "url": "https://fhir.kbv.de/StructureDefinition/KBV_EX_FOR_StatusCoPayment"
          },
          {
            "valueBoolean": false,
            "url": "https://fhir.kbv.de/StructureDefinition/KBV_EX_ERP_EmergencyServicesFee"
          },
          {
            "valueBoolean": false,
            "url": "https://fhir.kbv.de/StructureDefinition/KBV_EX_FOR_SER"
          },
          {
            "extension": [
              {
                "valueBoolean": false,
                "url": "Kennzeichen"
              }
            ],
            "url": "https://fhir.kbv.de/StructureDefinition/KBV_EX_ERP_Multiple_Prescription"
          }
        ],
        "dispenseRequest": {
          "quantity": {
            "value": 1,
            "unit": "Packung"
          }
        },
        "dosageInstruction": [
          {
            "extension": [
              {
                "valueBoolean": true,
                "url": "https://fhir.kbv.de/StructureDefinition/KBV_EX_ERP_DosageFlag"
              }
            ],
            "text": "1-0-1-0"
          }
        ],
        "status": "active",
        "requester": {
          "reference": "Practitioner/20597e0e-cb2a-45b3-95f0-dc3dbdb617c3"
        },
        "insurance": [
          {
            "reference": "Coverage/1b1ffb6e-eb05-43d7-87eb-e7818fe9661a"
          }
        ],
        "resourceType": "MedicationRequest",
        "medicationReference": {
          "reference": "Medication/5fe6e06c-8725-46d5-aecd-e65e041ca3de"
        }
      },
      "fullUrl": "http://pvs.praxis-topp-gluecklich.local/fhir/MedicationRequest/e930cdee-9eb5-4b44-88b5-2a18b69f3b9a"
    },
    {
      "resource": {
        "resourceType": "Medication",
        "meta": {
          "profile": [
            "https://fhir.kbv.de/StructureDefinition/KBV_PR_ERP_Medication_PZN|1.3"
          ]
        },
        "extension": [
          {
            "valueCoding": {
              "code": "00",
              "system": "https://fhir.kbv.de/CodeSystem/KBV_CS_ERP_Medication_Category"
            },
            "url": "https://fhir.kbv.de/StructureDefinition/KBV_EX_ERP_Medication_Category"
          },
          {
            "valueCodeableConcept": {
              "coding": [
                {
                  "version": "http://snomed.info/sct/11000274103/version/20240515",
                  "system": "http://snomed.info/sct",
                  "display": "Medicinal product (product)",
                  "code": "763158003"
                }
              ]
            },
            "url": "https://fhir.kbv.de/StructureDefinition/KBV_EX_Base_Medication_Type"
          },
          {
            "valueBoolean": false,
            "url": "https://fhir.kbv.de/StructureDefinition/KBV_EX_ERP_Medication_Vaccine"
          },
          {
            "valueCode": "N3",
            "url": "http://fhir.de/StructureDefinition/normgroesse"
          }
        ],
        "id": "5fe6e06c-8725-46d5-aecd-e65e041ca3de",
        "ingredient": [
          {
            "strength": {
              "denominator": {
                "value": 1,
                "unit": "Tbl."
              },
              "numerator": {
                "value": 100,
                "unit": "mg"
              }
            },
            "itemCodeableConcept": {
              "text": "Sumatriptan",
              "coding": [
                {
                  "code": "24064",
                  "system": "http://fhir.de/CodeSystem/ask"
                }
              ]
            }
          }
        ],
        "code": {
          "text": "Sumatriptan-1a Pharma 100 mg Tabletten",
          "coding": [
            {
              "code": "06313728",
              "system": "http://fhir.de/CodeSystem/ifa/pzn"
            }
          ]
        },
        "amount": {
          "denominator": {
            "value": 1
          },
          "numerator": {
            "extension": [
              {
                "valueString": "12",
                "url": "https://fhir.kbv.de/StructureDefinition/KBV_EX_ERP_Medication_PackagingSize"
              }
            ],
            "unit": "TAB"
          }
        },
        "form": {
          "coding": [
            {
              "code": "TAB",
              "system": "https://fhir.kbv.de/CodeSystem/KBV_CS_SFHIR_KBV_DARREICHUNGSFORM"
            }
          ]
        }
      },
      "fullUrl": "http://pvs.praxis-topp-gluecklich.local/fhir/Medication/5fe6e06c-8725-46d5-aecd-e65e041ca3de"
    },
    {
      "resource": {
        "resourceType": "Patient",
        "meta": {
          "profile": [
            "https://fhir.kbv.de/StructureDefinition/KBV_PR_FOR_Patient|1.2"
          ]
        },
        "name": [
          {
            "_family": {
              "extension": [
                {
                  "valueString": "Königsstein",
                  "url": "http://hl7.org/fhir/StructureDefinition/humanname-own-name"
                }
              ]
            },
            "use": "official",
            "family": "Königsstein",
            "given": [
              "Ludger"
            ]
          }
        ],
        "identifier": [
          {
            "system": "http://fhir.de/sid/gkv/kvid-10",
            "value": "X234567891",
            "type": {
              "coding": [
                {
                  "code": "KVZ10",
                  "system": "http://fhir.de/CodeSystem/identifier-type-de-basis"
                }
              ]
            }
          }
        ],
        "birthDate": "1935-06-22",
        "id": "9774f67f-a238-4daf-b4e6-679deeef3811",
        "address": [
          {
            "_line": [
              {
                "extension": [
                  {
                    "valueString": "1",
                    "url": "http://hl7.org/fhir/StructureDefinition/iso21090-ADXP-houseNumber"
                  },
                  {
                    "valueString": "Musterstr.",
                    "url": "http://hl7.org/fhir/StructureDefinition/iso21090-ADXP-streetName"
                  }
                ]
              }
            ],
            "city": "Berlin",
            "line": [
              "Musterstr. 1"
            ],
            "postalCode": "10623",
            "type": "both"
          }
        ]
      },
      "fullUrl": "http://pvs.praxis-topp-gluecklich.local/fhir/Patient/9774f67f-a238-4daf-b4e6-679deeef3811"
    },
    {
      "resource": {
        "resourceType": "Practitioner",
        "meta": {
          "profile": [
            "https://fhir.kbv.de/StructureDefinition/KBV_PR_FOR_Practitioner|1.2"
          ]
        },
        "name": [
          {
            "use": "official",
            "family": "Topp-Glücklich",
            "_prefix": [
              {
                "extension": [
                  {
                    "valueCode": "AC",
                    "url": "http://hl7.org/fhir/StructureDefinition/iso21090-EN-qualifier"
                  }
                ]
              }
            ],
            "_family": {
              "extension": [
                {
                  "valueString": "Topp-Glücklich",
                  "url": "http://hl7.org/fhir/StructureDefinition/humanname-own-name"
                }
              ]
            },
            "prefix": [
              "Dr. med."
            ],
            "given": [
              "Hans"
            ]
          }
        ],
        "identifier": [
          {
            "system": "https://fhir.kbv.de/NamingSystem/KBV_NS_Base_ANR",
            "value": "838382202",
            "type": {
              "coding": [
                {
                  "code": "LANR",
                  "system": "http://terminology.hl7.org/CodeSystem/v2-0203"
                }
              ]
            }
          }
        ],
        "qualification": [
          {
            "code": {
              "coding": [
                {
                  "code": "00",
                  "system": "https://fhir.kbv.de/CodeSystem/KBV_CS_FOR_Qualification_Type"
                }
              ]
            }
          },
          {
            "code": {
              "text": "Hausarzt",
              "coding": [
                {
                  "code": "Berufsbezeichnung",
                  "system": "https://fhir.kbv.de/CodeSystem/KBV_CS_FOR_Berufsbezeichnung"
                }
              ]
            }
          }
        ],
        "id": "20597e0e-cb2a-45b3-95f0-dc3dbdb617c3"
      },
      "fullUrl": "http://pvs.praxis-topp-gluecklich.local/fhir/Practitioner/20597e0e-cb2a-45b3-95f0-dc3dbdb617c3"
    },
    {
      "resource": {
        "resourceType": "Organization",
        "meta": {
          "profile": [
            "https://fhir.kbv.de/StructureDefinition/KBV_PR_FOR_Organization|1.2"
          ]
        },
        "name": "Hausarztpraxis Dr. Topp-Glücklich",
        "identifier": [
          {
            "system": "https://fhir.kbv.de/NamingSystem/KBV_NS_Base_BSNR",
            "value": "031234567",
            "type": {
              "coding": [
                {
                  "code": "BSNR",
                  "system": "http://terminology.hl7.org/CodeSystem/v2-0203"
                }
              ]
            }
          }
        ],
        "telecom": [
          {
            "value": "0301234567",
            "system": "phone"
          }
        ],
        "id": "cf042e44-086a-4d51-9c77-172f9a972e3b",
        "address": [
          {
            "_line": [
              {
                "extension": [
                  {
                    "valueString": "2",
                    "url": "http://hl7.org/fhir/StructureDefinition/iso21090-ADXP-houseNumber"
                  },
                  {
                    "valueString": "Musterstr.",
                    "url": "http://hl7.org/fhir/StructureDefinition/iso21090-ADXP-streetName"
                  }
                ]
              }
            ],
            "city": "Berlin",
            "line": [
              "Musterstr. 2"
            ],
            "postalCode": "10623",
            "type": "both"
          }
        ]
      },
      "fullUrl": "http://pvs.praxis-topp-gluecklich.local/fhir/Organization/cf042e44-086a-4d51-9c77-172f9a972e3b"
    },
    {
      "resource": {
        "resourceType": "Coverage",
        "meta": {
          "profile": [
            "https://fhir.kbv.de/StructureDefinition/KBV_PR_FOR_Coverage|1.2"
          ]
        },
        "payor": [
          {
            "identifier": {
              "value": "104212059",
              "system": "http://fhir.de/sid/arge-ik/iknr"
            },
            "display": "AOK Rheinland/Hamburg"
          }
        ],
        "status": "active",
        "id": "1b1ffb6e-eb05-43d7-87eb-e7818fe9661a",
        "extension": [
          {
            "valueCoding": {
              "code": "00",
              "system": "https://fhir.kbv.de/CodeSystem/KBV_CS_SFHIR_KBV_PERSONENGRUPPE"
            },
            "url": "http://fhir.de/StructureDefinition/gkv/besondere-personengruppe"
          },
          {
            "valueCoding": {
              "code": "00",
              "system": "https://fhir.kbv.de/CodeSystem/KBV_CS_SFHIR_KBV_DMP"
            },
            "url": "http://fhir.de/StructureDefinition/gkv/dmp-kennzeichen"
          },
          {
            "valueCoding": {
              "code": "03",
              "system": "https://fhir.kbv.de/CodeSystem/KBV_CS_SFHIR_ITA_WOP"
            },
            "url": "http://fhir.de/StructureDefinition/gkv/wop"
          },
          {
            "valueCoding": {
              "code": "1",
              "system": "https://fhir.kbv.de/CodeSystem/KBV_CS_SFHIR_KBV_VERSICHERTENSTATUS"
            },
            "url": "http://fhir.de/StructureDefinition/gkv/versichertenart"
          }
        ],
        "beneficiary": {
          "reference": "Patient/9774f67f-a238-4daf-b4e6-679deeef3811"
        },
        "type": {
          "coding": [
            {
              "code": "GKV",
              "system": "http://fhir.de/CodeSystem/versicherungsart-de-basis"
            }
          ]
        }
      },
      "fullUrl": "http://pvs.praxis-topp-gluecklich.local/fhir/Coverage/1b1ffb6e-eb05-43d7-87eb-e7818fe9661a"
    }
  ],
  "identifier": {
    "value": "160.000.764.737.300.50",
    "system": "https://gematik.de/fhir/erp/NamingSystem/GEM_ERP_NS_PrescriptionId"
  },
  "timestamp": "2025-10-30T09:30:00Z",
  "id": "281a985c-f25b-4aae-91a6-41ad744080b0",
  "type": "document"
}