<Bundle xmlns="http://hl7.org/fhir">
	<!-- Beispiel-Bundle PZN-Verordnung mit BG -->
	<id value="07368fb5-c096-4165-baaa-5e85dd14b907" />
    <meta>
		<lastUpdated value="2020-05-04T08:30:00Z" />
        <profile value="https://fhir.kbv.de/StructureDefinition/KBV_PR_ERP_Bundle|1.0.1" />
    </meta>
	<identifier>
		<system value="https://gematik.de/fhir/NamingSystem/PrescriptionID" />
		<value value="160.100.000.000.028.55" />
	</identifier>
	<type value="document" />
	<timestamp value="2020-06-23T08:30:00Z"/>	
	<entry>
		<fullUrl value="http://pvs.praxis-topp-gluecklich.local/fhir/Composition/d749d180-ccad-47a4-8e64-821e0738026d" />
		<resource>
			<Composition xmlns="http://hl7.org/fhir">
				<id value="d749d180-ccad-47a4-8e64-821e0738026d" />
				<meta>
					<profile value="https://fhir.kbv.de/StructureDefinition/KBV_PR_ERP_Composition|1.0.1" />
				</meta>
				<extension url="https://fhir.kbv.de/StructureDefinition/KBV_EX_FOR_Legal_basis"> 
					<valueCoding> 
						<system value="https://fhir.kbv.de/CodeSystem/KBV_CS_SFHIR_KBV_STATUSKENNZEICHEN" />
						<code value="00" />
					</valueCoding>
				</extension>
				<status value="final" />
				<type>
					<coding>
						<system value="https://fhir.kbv.de/CodeSystem/KBV_CS_SFHIR_KBV_FORMULAR_ART" />
						<code value="e16A" />
					</coding>
				</type>
				<subject>
					<reference value="Patient/9774f67f-a238-4daf-b4e6-679deeef3811" />
				</subject>
				<date value="2020-05-04T08:00:00Z"/>
				<author>
					<reference value="Practitioner/20597e0e-cb2a-45b3-95f0-dc3dbdb617c3" />
					<type value="Practitioner" />
				</author>
				<author>
					<type value="Device" />
					<identifier> 
						<system value="https://fhir.kbv.de/NamingSystem/KBV_NS_FOR_Pruefnummer" />
						<value value="Y/400/1910/36/346" />
					</identifier>
				</author>
				<title value="elektronische Arzneimittelverordnung" />
				<custodian>
					<reference value="Organization/cf042e44-086a-4d51-9c77-172f9a972e3b" />
				</custodian>
				<section>
					<code>
						<coding>
							<system value="https://fhir.kbv.de/CodeSystem/KBV_CS_ERP_Section_Type" />
							<code value="Prescription" />
						</coding>
					</code>
					<entry>
						<!-- Referenz auf Verordnung (MedicationRequest) -->
						<reference value="MedicationRequest/6ff3f5d1-0bd1-41d3-952f-768d7b7f5103" />
					</entry>
				</section>
				<section>
					<code>
						<coding>
							<system value="https://fhir.kbv.de/CodeSystem/KBV_CS_ERP_Section_Type" />
							<code value="Coverage" />
						</coding>
					</code>
					<entry>
						<!-- Referenz auf Krankenkasse/KostentrĂ¤ger  -->
						<reference value="Coverage/6ef3456a-987c-4ff9-9383-e388d752bb5e" />
					</entry>
				</section>
				<section>
					<code>
						<coding>
							<system value="https://fhir.kbv.de/CodeSystem/KBV_CS_ERP_Section_Type" />
							<code value="FOR_PractitionerRole" />
						</coding>
					</code>
					<entry>
						<!-- Referenz auf ASV-Teamnummer  -->
						<reference value="PractitionerRole/9a4090f8-8c5a-11ea-bc55-0242ac13000" />
					</entry>
				</section>
			</Composition>
		</resource>
	</entry>
	<entry>
		<fullUrl value="http://pvs.praxis-topp-gluecklich.local/fhir/MedicationRequest/6ff3f5d1-0bd1-41d3-952f-768d7b7f5103" />
		<resource>
			<MedicationRequest xmlns="http://hl7.org/fhir">
				<!--Beispiel MedicationRequest für eine PZN-Verordnung -->
				<id value="6ff3f5d1-0bd1-41d3-952f-768d7b7f5103" />
				<meta>
					<profile value="https://fhir.kbv.de/StructureDefinition/KBV_PR_ERP_Prescription|1.0.1" />
				</meta>
				<extension url="https://fhir.kbv.de/StructureDefinition/KBV_EX_ERP_StatusCoPayment">
					<valueCoding>
						<system value="https://fhir.kbv.de/CodeSystem/KBV_CS_ERP_StatusCoPayment" />
						<code value="1" />
					</valueCoding>
				</extension>
				<extension url="https://fhir.kbv.de/StructureDefinition/KBV_EX_ERP_EmergencyServicesFee">
					<valueBoolean value="false" />
				</extension>
				<extension url="https://fhir.kbv.de/StructureDefinition/KBV_EX_ERP_BVG">
					<valueBoolean value="false" />
				</extension>
				<extension url="https://fhir.kbv.de/StructureDefinition/KBV_EX_ERP_Accident">
					<extension url="unfallkennzeichen">
						<valueCoding>
							<system value="https://fhir.kbv.de/CodeSystem/KBV_CS_FOR_Ursache_Type" />
							<code value="4" />
						</valueCoding>
					</extension>
				</extension>
				<extension url="https://fhir.kbv.de/StructureDefinition/KBV_EX_ERP_Multiple_Prescription">
					<extension url="Kennzeichen">
						<valueBoolean value="false" />
					</extension>
				</extension>
				<status value="active" />
				<intent value="order" />
				<medicationReference>
					<reference value="Medication/5fe6e06c-8725-46d5-aecd-e65e041ca3de" />
				</medicationReference>
				<subject>
					<reference value="Patient/9774f67f-a238-4daf-b4e6-679deeef3811" />
				</subject>
				<authoredOn value="2020-02-03" />
				<requester>
					<reference value="Practitioner/20597e0e-cb2a-45b3-95f0-dc3dbdb617c3" />
				</requester>
				<insurance>
					<reference value="Coverage/6ef3456a-987c-4ff9-9383-e388d752bb5e" />
				</insurance>
				<dosageInstruction> 
					<extension url="https://fhir.kbv.de/StructureDefinition/KBV_EX_ERP_DosageFlag">
						<valueBoolean value="true" />
					</extension>
					<text value="1-0-1-0" />
				</dosageInstruction>
				<dispenseRequest> 
					<quantity> 
						<value value="1" />
						<system value="http://unitsofmeasure.org" />
						<code value="{Package}" />
					</quantity>
				</dispenseRequest>
				<substitution>
					<allowedBoolean value="true" />
				</substitution>
			</MedicationRequest>
		</resource>
	</entry>
	<entry>
		<fullUrl value="http://pvs.praxis-topp-gluecklich.local/fhir/Medication/5fe6e06c-8725-46d5-aecd-e65e041ca3de" />
		<resource>
			<Medication xmlns="http://hl7.org/fhir">
				<id value="5fe6e06c-8725-46d5-aecd-e65e041ca3de" />
				<meta>
					<profile value="https://fhir.kbv.de/StructureDefinition/KBV_PR_ERP_Medication_PZN|1.0.1" />
				</meta>
				<extension url="https://fhir.kbv.de/StructureDefinition/KBV_EX_ERP_Medication_Category">
					<valueCoding>
						<system value="https://fhir.kbv.de/CodeSystem/KBV_CS_ERP_Medication_Category" />
						<code value="00" />	
					</valueCoding>
				</extension>
				<extension url="https://fhir.kbv.de/StructureDefinition/KBV_EX_ERP_Medication_Vaccine">
					<valueBoolean value="false" />
				</extension>
				<extension url="http://fhir.de/StructureDefinition/normgroesse">
					<valueCode value="N1" />
				</extension>
				<code> 
					<coding>
						<system value="http://fhir.de/CodeSystem/ifa/pzn" />
						<code value="06313728" />
					</coding>
					<text value="Sumatriptan-1a Pharma 100 mg Tabletten" />
				</code>
				<form> 
					<coding>
						<system value="https://fhir.kbv.de/CodeSystem/KBV_CS_SFHIR_KBV_DARREICHUNGSFORM" />
						<code value="TAB" />
					</coding>
				</form>
				<amount> 
					<numerator>
						<value value="12" />
						<unit value="TAB" />
						<system value="http://unitsofmeasure.org" />
						<code value="{tbl}" />			
					</numerator>
					<denominator>
						<value value="1" />
					</denominator>
				</amount>
			</Medication>
		</resource>
	</entry>	
	<entry>
		<fullUrl value="http://pvs.praxis-topp-gluecklich.local/fhir/Patient/9774f67f-a238-4daf-b4e6-679deeef3811" />
		<resource>
			<Patient xmlns="http://hl7.org/fhir">
				<id value="9774f67f-a238-4daf-b4e6-679deeef3811" />
				<meta>
					<profile value="https://fhir.kbv.de/StructureDefinition/KBV_PR_FOR_Patient|1.0.3" />
				</meta>
				<identifier>
					<type>
						<coding>
							<system value="http://fhir.de/CodeSystem/identifier-type-de-basis" />
							<code value="GKV" />
						</coding>
					</type>
					<system value="http://fhir.de/NamingSystem/gkv/kvid-10" />
					<value value="X234567890" />
				</identifier>
				<name>
					<use value="official" />
					<family value="Ludger Königsstein">
						<extension url="http://hl7.org/fhir/StructureDefinition/humanname-own-name">
							<valueString value="Königsstein" />
						</extension>
					</family>
					<given value="Ludger" />
				</name>
				<birthDate value="1935-06-22" />
				<address>
					<type value="both" />
					<line value="Musterstr. 1">
						<extension url="http://hl7.org/fhir/StructureDefinition/iso21090-ADXP-houseNumber">
							<valueString value="1" />
						</extension>
						<extension url="http://hl7.org/fhir/StructureDefinition/iso21090-ADXP-streetName">
							<valueString value="Musterstr." />
						</extension>
					</line>
					<city value="Berlin" />
					<postalCode value="10623" />
				</address>
			</Patient>
		</resource>
	</entry>		
	<entry>
		<fullUrl value="http://pvs.praxis-topp-gluecklich.local/fhir/Practitioner/20597e0e-cb2a-45b3-95f0-dc3dbdb617c3" />
		<resource>
			<Practitioner xmlns="http://hl7.org/fhir">
				<id value="20597e0e-cb2a-45b3-95f0-dc3dbdb617c3" />
				<meta>
					<profile value="https://fhir.kbv.de/StructureDefinition/KBV_PR_FOR_Practitioner|1.0.3" />
				</meta>
				<identifier>
					<type>
						<coding>
							<system value="http://terminology.hl7.org/CodeSystem/v2-0203" />
							<code value="LANR" />
						</coding>
					</type>	
					<system value="https://fhir.kbv.de/NamingSystem/KBV_NS_Base_ANR" />
					<value value="838382202" />
				</identifier>
				<name>
					<use value="official" />
					<family value="Topp-Glücklich">
						<extension url="http://hl7.org/fhir/StructureDefinition/humanname-own-name">
							<valueString value="Topp-Glücklich" />
						</extension>
					</family>
					<given value="Hans" />
					<prefix value="Dr. med.">
						<extension url="http://hl7.org/fhir/StructureDefinition/iso21090-EN-qualifier">
							<valueCode value="AC" />
						</extension>
					</prefix>
				</name>
				<qualification>
					<code>
						<coding>
							<system value="https://fhir.kbv.de/CodeSystem/KBV_CS_FOR_Qualification_Type" />
							<code value="00" />
						</coding>
					</code>
				</qualification>
				<qualification>
					<code>
						<text value="Hausarzt" />
					</code>
				</qualification>
			</Practitioner>
		</resource>
	</entry>
	<entry>
		<fullUrl value="http://pvs.praxis-topp-gluecklich.local/fhir/Organization/cf042e44-086a-4d51-9c77-172f9a972e3b" />
		<resource>
			<Organization xmlns="http://hl7.org/fhir">
				<id value="cf042e44-086a-4d51-9c77-172f9a972e3b" />
				<meta>
					<profile value="https://fhir.kbv.de/StructureDefinition/KBV_PR_FOR_Organization|1.0.3" />
				</meta>
				<identifier>
					<type>
						<coding>
							<system value="http://terminology.hl7.org/CodeSystem/v2-0203" />
							<code value="BSNR" />
						</coding>
					</type>	
					<system value="https://fhir.kbv.de/NamingSystem/KBV_NS_Base_BSNR" />
					<value value="031234567" />
				</identifier>
				<name value="Hausarztpraxis Dr. Topp-Glücklich" />
				<telecom>
					<system value="phone" />
					<value value="0301234567" />
				</telecom>
				<address>
					<type value="both" />
					<line value="Musterstr. 2">
						<extension url="http://hl7.org/fhir/StructureDefinition/iso21090-ADXP-houseNumber">
							<valueString value="2" />
						</extension>
						<extension url="http://hl7.org/fhir/StructureDefinition/iso21090-ADXP-streetName">
							<valueString value="Musterstr." />
						</extension>
					</line>
					<city value="Berlin" />
					<postalCode value="10623" />
				</address>
			</Organization>
		</resource>
	</entry>
	<entry>
		<fullUrl value="http://pvs.praxis-topp-gluecklich.local/fhir/Coverage/6ef3456a-987c-4ff9-9383-e388d752bb5e" />
		<resource>
			<Coverage xmlns="http://hl7.org/fhir">
				<id value="6ef3456a-987c-4ff9-9383-e388d752bb5e" />
				<meta>
					<profile value="https://fhir.kbv.de/StructureDefinition/KBV_PR_FOR_Coverage|1.0.3" />
				</meta>
				<extension url="http://fhir.de/StructureDefinition/gkv/besondere-personengruppe">
					<valueCoding>
						<system value ="https://fhir.kbv.de/CodeSystem/KBV_CS_SFHIR_KBV_PERSONENGRUPPE" />
						<code value ="00" />
					</valueCoding>
				</extension>
				<extension url="http://fhir.de/StructureDefinition/gkv/dmp-kennzeichen">
					<valueCoding>
						<system value ="https://fhir.kbv.de/CodeSystem/KBV_CS_SFHIR_KBV_DMP" />
						<code value ="00" />
					</valueCoding>
				</extension>
				<extension url="http://fhir.de/StructureDefinition/gkv/wop">
					<valueCoding>
						<system value ="https://fhir.kbv.de/CodeSystem/KBV_CS_SFHIR_ITA_WOP" />
						<code value ="03" />
					</valueCoding>
				</extension>
				<extension url="http://fhir.de/StructureDefinition/gkv/versichertenart">
					<valueCoding>
						<system value ="https://fhir.kbv.de/CodeSystem/KBV_CS_SFHIR_KBV_VERSICHERTENSTATUS" />
						<code value ="1" />
					</valueCoding>
				</extension>
				<status value="active" />
				<type> 
					<coding>
						<system value="http://fhir.de/CodeSystem/versicherungsart-de-basis" />
						<code value="BG"/>
					</coding>
				</type>
				<beneficiary> 
					<reference value="Patient/9774f67f-a238-4daf-b4e6-679deeef3811" />
				</beneficiary>
				<payor>
					<identifier>
						<extension url="https://fhir.kbv.de/StructureDefinition/KBV_EX_FOR_Alternative_IK">
							<valueIdentifier>
								<system value="http://fhir.de/NamingSystem/arge-ik/iknr" />
								<value value="104212059" />
							</valueIdentifier>
						</extension>
						<system value="http://fhir.de/NamingSystem/arge-ik/iknr" />
						<value value="104212059" />
					</identifier>
					<display value="BG der Bauwirtschaft" />
				</payor>
			</Coverage>
		</resource>
	</entry>	
	<entry>
		<fullUrl value="http://pvs.praxis-topp-gluecklich.local/fhir/PractitionerRole/9a4090f8-8c5a-11ea-bc55-0242ac13000" />
		<resource>
			<PractitionerRole xmlns="http://hl7.org/fhir">
				<id value="9a4090f8-8c5a-11ea-bc55-0242ac13000" />
				<meta>
					<profile value="https://fhir.kbv.de/StructureDefinition/KBV_PR_FOR_PractitionerRole|1.0.3" />
				</meta>
				<practitioner>
					<reference value="Practitioner/20597e0e-cb2a-45b3-95f0-dc3dbdb617c3" />
				</practitioner>
				<organization>
					<identifier>
						<system value="http://fhir.de/NamingSystem/asv/teamnummer" />
						<value value="003456789" />
					</identifier>
				</organization>
			</PractitionerRole>
		</resource>
	</entry>
</Bundle>
