<Bundle xmlns="http://hl7.org/fhir">
	<id value="dae573db-54e3-4cb8-880d-0a46bea8aea1" />
	<meta>
		<lastUpdated value="2022-05-20T08:30:00Z" />
		<profile value="https://fhir.kbv.de/StructureDefinition/KBV_PR_ERP_Bundle|1.1.0" />
	</meta>
	<identifier>
		<system value="https://gematik.de/fhir/erp/NamingSystem/GEM_ERP_NS_PrescriptionId" />
		<value value="160.100.000.000.026.61" />
	</identifier>
	<type value="document" />
	<timestamp value="2022-05-20T08:30:00Z"/>
	<entry>
		<fullUrl value="http://pvs.praxis.local/fhir/Composition/e1d276c4-f4d5-4e2d-8a82-04d92b34ca51" />
		<resource>
			<Composition xmlns="http://hl7.org/fhir">
				<id value="e1d276c4-f4d5-4e2d-8a82-04d92b34ca51" />
				<meta>
					<profile value="https://fhir.kbv.de/StructureDefinition/KBV_PR_ERP_Composition|1.1.0" />
				</meta>
				<extension url="https://fhir.kbv.de/StructureDefinition/KBV_EX_FOR_Legal_basis">
					<valueCoding>
						<system value="https://fhir.kbv.de/CodeSystem/KBV_CS_SFHIR_KBV_STATUSKENNZEICHEN" />
						<code value="00" />
					</valueCoding>
				</extension>
				<status value="final" />
				<type>
					<coding>
						<system value="https://fhir.kbv.de/CodeSystem/KBV_CS_SFHIR_KBV_FORMULAR_ART" />
						<code value="e16A" />
					</coding>
				</type>
				<subject>
					<reference value="Patient/1d36152b-40c6-4aeb-a552-86a4d3277edc" />
				</subject>
				<date value="2022-05-20T08:00:00Z"/>
				<author>
					<reference value="Practitioner/667ffd79-42a3-4002-b7ca-6b9098f20ccb" />
					<type value="Practitioner" />
				</author>
				<author>
					<type value="Device" />
					<identifier>
						<system value="https://fhir.kbv.de/NamingSystem/KBV_NS_FOR_Pruefnummer" />
						<value value="Y/400/2107/36/999" />
					</identifier>
				</author>
				<title value="elektronische Arzneimittelverordnung" />
				<custodian>
					<reference value="Organization/5d3f4ac0-2b44-4d48-b363-e63efa72973b" />
				</custodian>
				<section>
					<code>
						<coding>
							<system value="https://fhir.kbv.de/CodeSystem/KBV_CS_ERP_Section_Type" />
							<code value="Prescription" />
						</coding>
					</code>
					<entry>
						<!-- Referenz auf Verordnung (MedicationRequest) -->
						<reference value="MedicationRequest/c97a6538-6742-45a3-a229-2e0e792db446" />
					</entry>
				</section>
				<section>
					<code>
						<coding>
							<system value="https://fhir.kbv.de/CodeSystem/KBV_CS_ERP_Section_Type" />
							<code value="Coverage" />
						</coding>
					</code>
					<entry>
						<!-- Referenz auf Krankenkasse/KostentrĂ¤ger  -->
						<reference value="Coverage/e51239e1-ba74-48e0-97fb-9754d2b05c60" />
					</entry>
				</section>
			</Composition>
		</resource>
	</entry>
	<entry>
		<fullUrl value="http://pvs.praxis.local/fhir/MedicationRequest/c97a6538-6742-45a3-a229-2e0e792db446" />
		<resource>
			<MedicationRequest xmlns="http://hl7.org/fhir">
				<!--Beispiel MedicationRequest für eine Rezepturverordnung -->
				<id value="c97a6538-6742-45a3-a229-2e0e792db446" />
				<meta>
					<profile value="https://fhir.kbv.de/StructureDefinition/KBV_PR_ERP_Prescription|1.1.0" />
				</meta>
				<extension url="https://fhir.kbv.de/StructureDefinition/KBV_EX_FOR_StatusCoPayment">
					<valueCoding>
						<system value="https://fhir.kbv.de/CodeSystem/KBV_CS_FOR_StatusCoPayment" />
						<code value="0" />
					</valueCoding>
				</extension>
				<extension url="https://fhir.kbv.de/StructureDefinition/KBV_EX_ERP_EmergencyServicesFee">
					<valueBoolean value="false" />
				</extension>
				<extension url="https://fhir.kbv.de/StructureDefinition/KBV_EX_ERP_BVG">
					<valueBoolean value="false" />
				</extension>
				<extension url="https://fhir.kbv.de/StructureDefinition/KBV_EX_ERP_Multiple_Prescription">
					<extension url="Kennzeichen">
						<valueBoolean value="false" />
					</extension>
				</extension>
				<status value="active" />
				<intent value="order" />
				<medicationReference>
					<reference value="Medication/fd681c2a-6f35-4fa9-8c84-573157130773" />
				</medicationReference>
				<subject>
					<reference value="Patient/1d36152b-40c6-4aeb-a552-86a4d3277edc" />
				</subject>
				<authoredOn value="2022-05-20" />
				<requester>
					<reference value="Practitioner/667ffd79-42a3-4002-b7ca-6b9098f20ccb" />
				</requester>
				<insurance>
					<reference value="Coverage/e51239e1-ba74-48e0-97fb-9754d2b05c60" />
				</insurance>
				<dosageInstruction>
					<patientInstruction value="zur ärztlichen parenteralen Applikation gem. Therapieplan" />
				</dosageInstruction>
				<dispenseRequest>
					<quantity>
						<value value="3" />
						<system value="http://unitsofmeasure.org" />
						<code value="{Package}" />
					</quantity>
				</dispenseRequest>
				<substitution>
					<allowedBoolean value="true" />
				</substitution>
			</MedicationRequest>
		</resource>
	</entry>
	<entry>
		<fullUrl value="http://pvs.praxis.local/fhir/Medication/fd681c2a-6f35-4fa9-8c84-573157130773" />
		<resource>
			<Medication xmlns="http://hl7.org/fhir">
				<id value="fd681c2a-6f35-4fa9-8c84-573157130773" />
				<meta>
					<profile value="https://fhir.kbv.de/StructureDefinition/KBV_PR_ERP_Medication_Compounding|1.1.0" />
				</meta>
				<extension url="https://fhir.kbv.de/StructureDefinition/KBV_EX_Base_Medication_Type">
					<valueCodeableConcept>
						<coding> 
							<system value="http://snomed.info/sct"/>
							<version value="http://snomed.info/sct/900000000000207008/version/20220331" />
							<code value="373873005:860781008=362943005" />
							<display value="Pharmaceutical / biologic product (product) : Has product characteristic (attribute) = Manual method (qualifier value)" />
						</coding>
					</valueCodeableConcept>
				</extension>
				<extension url="https://fhir.kbv.de/StructureDefinition/KBV_EX_ERP_Medication_Category">
					<valueCoding>
						<system value="https://fhir.kbv.de/CodeSystem/KBV_CS_ERP_Medication_Category"/>
						<code value="00" />
					</valueCoding>
				</extension>
				<extension url="https://fhir.kbv.de/StructureDefinition/KBV_EX_ERP_Medication_Vaccine">
					<valueBoolean value="false" />
				</extension>
				<code>
					<coding>
						<system value="https://fhir.kbv.de/CodeSystem/KBV_CS_ERP_Medication_Type" />
						<code value="rezeptur" />
					</coding>
				</code>
				<form>
					<text value="Infusionslösung" />
				</form>
				<amount>
					<numerator>
						<extension url="https://fhir.kbv.de/StructureDefinition/KBV_EX_ERP_Medication_PackagingSize">
							<valueString value="500" />
						</extension>
						<unit value="ml" />
					</numerator>
					<denominator>
						<value value="1" />
					</denominator>
				</amount>
				<ingredient>
					<itemCodeableConcept>
						<text value="Etoposid" />
					</itemCodeableConcept>
					<strength>
						<numerator>
							<value value="180" />
							<unit value="mg" />
						</numerator>
						<denominator>
							<value value="1" />
						</denominator>
					</strength>
				</ingredient>
				<ingredient>
					<itemCodeableConcept>
						<text value="NaCl 0,9 %" />
					</itemCodeableConcept>
					<strength>
						<numerator>
							<value value="500" />
							<unit value="ml" />
						</numerator>
						<denominator>
							<value value="1" />
						</denominator>
					</strength>
				</ingredient>
			</Medication>
		</resource>
	</entry>
	<entry>
		<fullUrl value="http://pvs.praxis.local/fhir/Patient/1d36152b-40c6-4aeb-a552-86a4d3277edc" />
		<resource>
			<Patient xmlns="http://hl7.org/fhir">
				<id value="1d36152b-40c6-4aeb-a552-86a4d3277edc" />
				<meta>
					<profile value="https://fhir.kbv.de/StructureDefinition/KBV_PR_FOR_Patient|1.1.0" />
				</meta>
				<identifier>
					<type>
						<coding>
							<system value="http://fhir.de/CodeSystem/identifier-type-de-basis" />
							<code value="GKV" />
						</coding>
					</type>
					<system value="http://fhir.de/sid/gkv/kvid-10" />
					<value value="H030170228" />
				</identifier>
				<name>
					<use value="official" />
					<family value="Grossherzog von und zu der Schaumberg-von-und-zu-Schaumburg-und-Radeberg">
						<extension url="http://fhir.de/StructureDefinition/humanname-namenszusatz">
							<valueString value="Grossherzog" />
						</extension>
						<extension url="http://hl7.org/fhir/StructureDefinition/humanname-own-prefix">
							<valueString value="von und zu der" />
						</extension>            
						<extension url="http://hl7.org/fhir/StructureDefinition/humanname-own-name">
							<valueString value="Schaumberg-von-und-zu-Schaumburg-und-Radeberg" />
						</extension>
					</family>
					<given value="Friedrich-Wilhelm-Karl-Gustav-Justus-Gotfried" />
					<prefix value="Prof. habil. Dr. med">
						<extension url="http://hl7.org/fhir/StructureDefinition/iso21090-EN-qualifier">
							<valueCode value="AC" /> 
						 </extension>
					</prefix>
				</name>
				<birthDate value="1951-07-12" />
				<address>
					<type value="postal" />
					<line value="124589">
						<extension url="http://hl7.org/fhir/StructureDefinition/iso21090-ADXP-postBox">
							<valueString value="124589" />
						</extension>
					</line>
					<city value="Berlin" />
					<postalCode value="12489" />
					<country value="D" />
				</address>
			</Patient>
		</resource>
	</entry>
	<entry>
		<fullUrl value="http://pvs.praxis.local/fhir/Practitioner/667ffd79-42a3-4002-b7ca-6b9098f20ccb" />
		<resource>
			<Practitioner xmlns="http://hl7.org/fhir">
				<id value="667ffd79-42a3-4002-b7ca-6b9098f20ccb" />
				<meta>
					<profile value="https://fhir.kbv.de/StructureDefinition/KBV_PR_FOR_Practitioner|1.1.0" />
				</meta>
				<identifier>
					<type>
						<coding>
							<system value="http://terminology.hl7.org/CodeSystem/v2-0203" />
							<code value="LANR" />
						</coding>
					</type>
					<system value="https://fhir.kbv.de/NamingSystem/KBV_NS_Base_ANR" />
					<value value="987654423" />
				</identifier>
				<name>
					<use value="official" />
					<family value="Schneider">
						<extension url="http://hl7.org/fhir/StructureDefinition/humanname-own-name">
							<valueString value="Schneider" />
						</extension>
					</family>
					<given value="Emma" />
					<prefix value="Dr. med.">
						<extension url="http://hl7.org/fhir/StructureDefinition/iso21090-EN-qualifier">
							<valueCode value="AC" />
						</extension>
					</prefix>
				</name>
				<qualification>
					<code>
						<coding>
							<system value="https://fhir.kbv.de/CodeSystem/KBV_CS_FOR_Qualification_Type" />
							<code value="00" />
						</coding>
					</code>
				</qualification>
				<qualification>
					<code>
						<coding>
							<system value="https://fhir.kbv.de/CodeSystem/KBV_CS_FOR_Berufsbezeichnung" />
							<code value="Berufsbezeichnung" />
						</coding>
						<text value="Fachärztin für Innere Medizin" />
					</code>
				</qualification>
			</Practitioner>
		</resource>
	</entry>
	<entry>
		<fullUrl value="http://pvs.praxis.local/fhir/Organization/5d3f4ac0-2b44-4d48-b363-e63efa72973b" />
		<resource>
			<Organization xmlns="http://hl7.org/fhir">
				<id value="5d3f4ac0-2b44-4d48-b363-e63efa72973b" />
				<meta>
					<profile value="https://fhir.kbv.de/StructureDefinition/KBV_PR_FOR_Organization|1.1.0" />
				</meta>
				<identifier>
					<type>
						<coding>
							<system value="http://terminology.hl7.org/CodeSystem/v2-0203" />
							<code value="BSNR" />
						</coding>
					</type>
					<system value="https://fhir.kbv.de/NamingSystem/KBV_NS_Base_BSNR" />
					<value value="721111100" />
				</identifier>
				<name value="MVZ" />
				<telecom>
					<system value="phone" />
					<value value="0301234567" />
				</telecom>
				<telecom>
					<system value="fax" />
					<value value="030123456789" />
				</telecom>
				<telecom>
					<system value="email" />
					<value value="mvz@e-mail.de" />
				</telecom>
				<address>
					<type value="both" />
					<line value="Herbert-Lewin-Platz 2">
						<extension url="http://hl7.org/fhir/StructureDefinition/iso21090-ADXP-houseNumber">
							<valueString value="2" />
						</extension>
						<extension url="http://hl7.org/fhir/StructureDefinition/iso21090-ADXP-streetName">
							<valueString value="Herbert-Lewin-Platz" />
						</extension>
					</line>
					<city value="Berlin" />
					<postalCode value="10623" />
					<country value="D" />
				</address>
			</Organization>
		</resource>
	</entry>
	<entry>
		<fullUrl value="http://pvs.praxis.local/fhir/Coverage/e51239e1-ba74-48e0-97fb-9754d2b05c60" />
		<resource>
			<Coverage xmlns="http://hl7.org/fhir">
				<id value="e51239e1-ba74-48e0-97fb-9754d2b05c60" />
				<meta>
					<profile value="https://fhir.kbv.de/StructureDefinition/KBV_PR_FOR_Coverage|1.1.0" />
				</meta>
				<extension url="http://fhir.de/StructureDefinition/gkv/besondere-personengruppe">
					<valueCoding>
						<system value="https://fhir.kbv.de/CodeSystem/KBV_CS_SFHIR_KBV_PERSONENGRUPPE" />
						<code value="00" />
					</valueCoding>
				</extension>
				<extension url="http://fhir.de/StructureDefinition/gkv/dmp-kennzeichen">
					<valueCoding>
						<system value="https://fhir.kbv.de/CodeSystem/KBV_CS_SFHIR_KBV_DMP" />
						<code value="00" />
					</valueCoding>
				</extension>
				<extension url="http://fhir.de/StructureDefinition/gkv/wop">
					<valueCoding>
						<system value="https://fhir.kbv.de/CodeSystem/KBV_CS_SFHIR_ITA_WOP" />
						<code value="72" />
					</valueCoding>
				</extension>
				<extension url="http://fhir.de/StructureDefinition/gkv/versichertenart">
					<valueCoding>
						<system value="https://fhir.kbv.de/CodeSystem/KBV_CS_SFHIR_KBV_VERSICHERTENSTATUS" />
						<code value="1" />
					</valueCoding>
				</extension>
				<status value="active" />
				<type>
					<coding>
						<system value="http://fhir.de/CodeSystem/versicherungsart-de-basis" />
						<code value="GKV" />
					</coding>
				</type>
				<beneficiary>
					<reference value="Patient/1d36152b-40c6-4aeb-a552-86a4d3277edc" />
				</beneficiary>
				<period>
					<end value="2034-12-31" />
				</period>
				<payor>
					<identifier>
						<system value="http://fhir.de/sid/arge-ik/iknr" />
						<value value="108035612" />
					</identifier>
					<display value="mhplus BKK" />
				</payor>
			</Coverage>
		</resource>
	</entry>
</Bundle>
