<Bundle xmlns="http://hl7.org/fhir">
	<id value="218b581d-ccbe-480e-b8d7-f5f9b925e8c4" />
	<meta>
		<lastUpdated value="2022-05-20T08:30:00Z" />
		<profile value="https://fhir.kbv.de/StructureDefinition/KBV_PR_ERP_Bundle|1.1.0" />
	</meta>
	<identifier>
		<system value="https://gematik.de/fhir/erp/NamingSystem/GEM_ERP_NS_PrescriptionId" />
		<value value="160.100.000.000.020.79" />
	</identifier>
	<type value="document" />
	<timestamp value="2022-05-20T08:30:00Z"/>
	<entry>
		<fullUrl value="http://pvs.praxis.local/fhir/Composition/5c43d99a-64ba-436d-9b8c-6ee5156d7607" />
		<resource>
			<Composition xmlns="http://hl7.org/fhir">
				<id value="5c43d99a-64ba-436d-9b8c-6ee5156d7607" />
				<meta>
					<profile value="https://fhir.kbv.de/StructureDefinition/KBV_PR_ERP_Composition|1.1.0" />
				</meta>
				<extension url="https://fhir.kbv.de/StructureDefinition/KBV_EX_FOR_Legal_basis">
					<valueCoding>
						<system value="https://fhir.kbv.de/CodeSystem/KBV_CS_SFHIR_KBV_STATUSKENNZEICHEN" />
						<code value="00" />
					</valueCoding>
				</extension>
				<status value="final" />
				<type>
					<coding>
						<system value="https://fhir.kbv.de/CodeSystem/KBV_CS_SFHIR_KBV_FORMULAR_ART" />
						<code value="e16A" />
					</coding>
				</type>
				<subject>
					<reference value="Patient/1d36152b-40c6-4aeb-a552-86a4d3277edc" />
				</subject>
				<date value="2022-05-20T08:00:00Z"/>
				<author>
					<reference value="Practitioner/d6f3b55d-3095-4655-96dc-da3bec21271c" />
					<type value="Practitioner" />
				</author>
				<author>
					<type value="Device" />
					<identifier>
						<system value="https://fhir.kbv.de/NamingSystem/KBV_NS_FOR_Pruefnummer" />
						<value value="Y/400/2107/36/999" />
					</identifier>
				</author>
				<title value="elektronische Arzneimittelverordnung" />
				<custodian>
					<reference value="Organization/2a555cd3-0543-483c-88b3-f68647620962" />
				</custodian>
				<section>
					<code>
						<coding>
							<system value="https://fhir.kbv.de/CodeSystem/KBV_CS_ERP_Section_Type" />
							<code value="Prescription" />
						</coding>
					</code>
					<entry>
						<!-- Referenz auf Verordnung (MedicationRequest) -->
						<reference value="MedicationRequest/53344ec1-64ec-400a-b741-8ab1a4f1f07d" />
					</entry>
				</section>
				<section>
					<code>
						<coding>
							<system value="https://fhir.kbv.de/CodeSystem/KBV_CS_ERP_Section_Type" />
							<code value="Coverage" />
						</coding>
					</code>
					<entry>
						<!-- Referenz auf Krankenkasse/KostentrĂ¤ger  -->
						<reference value="Coverage/0099318c-c7a5-4bf9-a164-3365fb149a3f" />
					</entry>
				</section>
			</Composition>
		</resource>
	</entry>
	<entry>
		<fullUrl value="http://pvs.praxis.local/fhir/MedicationRequest/53344ec1-64ec-400a-b741-8ab1a4f1f07d" />
		<resource>
			<MedicationRequest xmlns="http://hl7.org/fhir">
				<id value="53344ec1-64ec-400a-b741-8ab1a4f1f07d" />
				<meta>
					<profile value="https://fhir.kbv.de/StructureDefinition/KBV_PR_ERP_Prescription|1.1.0" />
				</meta>
				<extension url="https://fhir.kbv.de/StructureDefinition/KBV_EX_FOR_StatusCoPayment">
					<valueCoding>
						<system value="https://fhir.kbv.de/CodeSystem/KBV_CS_FOR_StatusCoPayment" />
						<code value="1" />
					</valueCoding>
				</extension>
				<extension url="https://fhir.kbv.de/StructureDefinition/KBV_EX_ERP_EmergencyServicesFee">
					<valueBoolean value="false" />
				</extension>
				<extension url="https://fhir.kbv.de/StructureDefinition/KBV_EX_ERP_BVG">
					<valueBoolean value="false" />
				</extension>
				<extension url="https://fhir.kbv.de/StructureDefinition/KBV_EX_FOR_Accident">
					<extension url="Unfallkennzeichen">
						<valueCoding>
							<system value="https://fhir.kbv.de/CodeSystem/KBV_CS_FOR_Ursache_Type"/>
							<code value="4"/>
						</valueCoding>
					</extension>
				</extension>
				<extension url="https://fhir.kbv.de/StructureDefinition/KBV_EX_ERP_Multiple_Prescription">
					<extension url="Kennzeichen">
						<valueBoolean value="false" />
					</extension>
				</extension>
				<status value="active" />
				<intent value="order" />
				<medicationReference>
					<reference value="Medication/e091f324-689b-4f3c-875d-050b525b09c5" />
				</medicationReference>
				<subject>
					<reference value="Patient/1d36152b-40c6-4aeb-a552-86a4d3277edc" />
				</subject>
				<authoredOn value="2022-05-20" />
				<requester>
					<reference value="Practitioner/d6f3b55d-3095-4655-96dc-da3bec21271c" />
				</requester>
				<insurance>
					<reference value="Coverage/0099318c-c7a5-4bf9-a164-3365fb149a3f" />
				</insurance>
				<dosageInstruction>
					<extension url="https://fhir.kbv.de/StructureDefinition/KBV_EX_ERP_DosageFlag">
						<valueBoolean value="false" />
					</extension>
				</dosageInstruction>
				<dispenseRequest>
					<quantity>
						<value value="1" />
						<system value="http://unitsofmeasure.org" />
						<code value="{Package}" />
					</quantity>
				</dispenseRequest>
			</MedicationRequest>
		</resource>
	</entry>
	<entry>
		<fullUrl value="http://pvs.praxis.local/fhir/Medication/e091f324-689b-4f3c-875d-050b525b09c5" />
		<resource>
			<Medication xmlns="http://hl7.org/fhir">
				<id value="e091f324-689b-4f3c-875d-050b525b09c5"/>
				<meta>
					<profile value="https://fhir.kbv.de/StructureDefinition/KBV_PR_ERP_Medication_Ingredient|1.1.0"/>
				</meta>
				<extension url="https://fhir.kbv.de/StructureDefinition/KBV_EX_ERP_Medication_Category">
					<valueCoding>
						<system value="https://fhir.kbv.de/CodeSystem/KBV_CS_ERP_Medication_Category"/>
						<code value="00" />
					</valueCoding>
				</extension>				
				<extension url="https://fhir.kbv.de/StructureDefinition/KBV_EX_ERP_Medication_Vaccine">
					<valueBoolean value="false"/>
				</extension>
				<extension url="http://fhir.de/StructureDefinition/normgroesse">
					<valueCode value="N2"/>
				</extension>
				<code>
					<coding>
						<system value="https://fhir.kbv.de/CodeSystem/KBV_CS_ERP_Medication_Type"/>
						<code value="wirkstoff"/>
					</coding>
				</code>
				<form>
					<text value="Tabletten"/>
				</form>
				<amount>
					<numerator>
						<extension url="https://fhir.kbv.de/StructureDefinition/KBV_EX_ERP_Medication_PackagingSize">
							<valueString value="100" />
						</extension>
						<unit value="Stück" />
					</numerator>
					<denominator>
						<value value="1"/>
					</denominator>
				</amount>
				<ingredient>
					<itemCodeableConcept>
						<coding>
							<system value="http://fhir.de/CodeSystem/ask"/>
							<code value="22308"/>
						</coding>
						<text value="Gabapentin"/>
					</itemCodeableConcept>
					<strength>
						<numerator>
							<value value="300"/>
							<unit value="mg"/>
						</numerator>
						<denominator>
							<value value="1"/>
						</denominator>
					</strength>
				</ingredient>
				<ingredient>
					<itemCodeableConcept>
						<text value="Gabapentin"/>
					</itemCodeableConcept>
					<strength>
						<numerator>
							<value value="300"/>
							<unit value="mg"/>
						</numerator>
						<denominator>
							<value value="1"/>
						</denominator>
					</strength>
				</ingredient>
			</Medication>
		</resource>
	</entry>
	<entry>
		<fullUrl value="http://pvs.praxis.local/fhir/Patient/1d36152b-40c6-4aeb-a552-86a4d3277edc" />
		<resource>
			<Patient xmlns="http://hl7.org/fhir">
				<id value="1d36152b-40c6-4aeb-a552-86a4d3277edc" />
				<meta>
					<profile value="https://fhir.kbv.de/StructureDefinition/KBV_PR_FOR_Patient|1.1.0" />
				</meta>
				<identifier>
					<type>
						<coding>
							<system value="http://fhir.de/CodeSystem/identifier-type-de-basis" />
							<code value="GKV" />
						</coding>
					</type>
					<system value="http://fhir.de/sid/gkv/kvid-10" />
					<value value="H030170228" />
				</identifier>
				<name>
					<use value="official" />
					<family value="Grossherzog von und zu der Schaumberg-von-und-zu-Schaumburg-und-Radeberg">
						<extension url="http://fhir.de/StructureDefinition/humanname-namenszusatz">
							<valueString value="Grossherzog" />
						</extension>
						<extension url="http://hl7.org/fhir/StructureDefinition/humanname-own-prefix">
							<valueString value="von und zu der" />
						</extension>            
						<extension url="http://hl7.org/fhir/StructureDefinition/humanname-own-name">
							<valueString value="Schaumberg-von-und-zu-Schaumburg-und-Radeberg" />
						</extension>
					</family>
					<given value="Friedrich-Wilhelm-Karl-Gustav-Justus-Gotfried" />
					<prefix value="Prof. habil. Dr. med">
						<extension url="http://hl7.org/fhir/StructureDefinition/iso21090-EN-qualifier">
							<valueCode value="AC" /> 
						 </extension>
					</prefix>
				</name>
				<birthDate value="1951-07-12" />
				<address>
					<type value="postal" />
					<line value="124589">
						<extension url="http://hl7.org/fhir/StructureDefinition/iso21090-ADXP-postBox">
							<valueString value="124589" />
						</extension>
					</line>
					<city value="Berlin" />
					<postalCode value="12489" />
					<country value="D" />
				</address>
			</Patient>
		</resource>
	</entry>
	<entry>
		<fullUrl value="http://pvs.praxis.local/fhir/Practitioner/d6f3b55d-3095-4655-96dc-da3bec21271c" />
		<resource>
			<Practitioner xmlns="http://hl7.org/fhir">
				<id value="d6f3b55d-3095-4655-96dc-da3bec21271c" />
				<meta>
					<profile value="https://fhir.kbv.de/StructureDefinition/KBV_PR_FOR_Practitioner|1.1.0" />
				</meta>
				<identifier>
					<type>
						<coding>
							<system value="http://terminology.hl7.org/CodeSystem/v2-0203" />
							<code value="LANR" />
						</coding>
					</type>
					<system value="https://fhir.kbv.de/NamingSystem/KBV_NS_Base_ANR" />
					<value value="754236701" />
				</identifier>
				<name>
					<use value="official" />
					<family value="Schulz">
						<extension url="http://hl7.org/fhir/StructureDefinition/humanname-own-name">
							<valueString value="Schulz" />
						</extension>
					</family>
					<given value="Ben" />
				</name>
				<qualification>
					<code>
						<coding>
							<system value="https://fhir.kbv.de/CodeSystem/KBV_CS_FOR_Qualification_Type" />
							<code value="00" />
						</coding>
					</code>
				</qualification>
				<qualification>
					<code>
						<coding>
							<system value="https://fhir.kbv.de/CodeSystem/KBV_CS_FOR_Berufsbezeichnung" />
							<code value="Berufsbezeichnung" />
						</coding>
						<text value="Facharzt für Allgemeinmedizin" />
					</code>
				</qualification>
			</Practitioner>
		</resource>
	</entry>
	<entry>
		<fullUrl value="http://pvs.praxis.local/fhir/Organization/2a555cd3-0543-483c-88b3-f68647620962" />
		<resource>
			<Organization xmlns="http://hl7.org/fhir">
				<id value="2a555cd3-0543-483c-88b3-f68647620962" />
				<meta>
					<profile value="https://fhir.kbv.de/StructureDefinition/KBV_PR_FOR_Organization|1.1.0" />
				</meta>
				<identifier>
					<type>
						<coding>
							<system value="http://terminology.hl7.org/CodeSystem/v2-0203" />
							<code value="BSNR" />
						</coding>
					</type>
					<system value="https://fhir.kbv.de/NamingSystem/KBV_NS_Base_BSNR" />
					<value value="724444400" />
				</identifier>
				<name value="Hausarztpraxis" />
				<telecom>
					<system value="phone" />
					<value value="030321654987" />
				</telecom>
				<telecom>
					<system value="email" />
					<value value="hausarztpraxis@e-mail.de" />
				</telecom>
				<address>
					<type value="both" />
					<line value="Herbert-Lewin-Platz 2">
						<extension url="http://hl7.org/fhir/StructureDefinition/iso21090-ADXP-houseNumber">
							<valueString value="2" />
						</extension>
						<extension url="http://hl7.org/fhir/StructureDefinition/iso21090-ADXP-streetName">
							<valueString value="Herbert-Lewin-Platz" />
						</extension>
					</line>
					<line value="Erdgeschoss">
						<extension url="http://hl7.org/fhir/StructureDefinition/iso21090-ADXP-additionalLocator">
							<valueString value="Erdgeschoss" />
						</extension>
					</line>
					<city value="Berlin" />
					<postalCode value="10623" />
					<country value="D" />
				</address>
			</Organization>
		</resource>
	</entry>
	<entry>
		<fullUrl value="http://pvs.praxis.local/fhir/Coverage/0099318c-c7a5-4bf9-a164-3365fb149a3f" />
		<resource>
			<Coverage xmlns="http://hl7.org/fhir">
				<id value="0099318c-c7a5-4bf9-a164-3365fb149a3f" />
				<meta>
					<profile value="https://fhir.kbv.de/StructureDefinition/KBV_PR_FOR_Coverage|1.1.0" />
				</meta>
				<extension url="http://fhir.de/StructureDefinition/gkv/besondere-personengruppe">
					<valueCoding>
						<system value="https://fhir.kbv.de/CodeSystem/KBV_CS_SFHIR_KBV_PERSONENGRUPPE" />
						<code value="00" />
					</valueCoding>
				</extension>
				<extension url="http://fhir.de/StructureDefinition/gkv/dmp-kennzeichen">
					<valueCoding>
						<system value="https://fhir.kbv.de/CodeSystem/KBV_CS_SFHIR_KBV_DMP" />
						<code value="00" />
					</valueCoding>
				</extension>
				<extension url="http://fhir.de/StructureDefinition/gkv/wop">
					<valueCoding>
						<system value="https://fhir.kbv.de/CodeSystem/KBV_CS_SFHIR_ITA_WOP" />
						<code value="72" />
					</valueCoding>
				</extension>
				<extension url="http://fhir.de/StructureDefinition/gkv/versichertenart">
					<valueCoding>
						<system value="https://fhir.kbv.de/CodeSystem/KBV_CS_SFHIR_KBV_VERSICHERTENSTATUS" />
						<code value="1" />
					</valueCoding>
				</extension>
				<status value="active" />
				<type>
					<coding>
						<system value="http://fhir.de/CodeSystem/versicherungsart-de-basis" />
						<code value="BG" />
					</coding>
				</type>
				<beneficiary>
					<reference value="Patient/1d36152b-40c6-4aeb-a552-86a4d3277edc" />
				</beneficiary>
				<period>
					<end value="2034-12-31" />
				</period>
				<payor>
					<identifier>
						<extension url="https://fhir.kbv.de/StructureDefinition/KBV_EX_FOR_Alternative_IK">
							<valueIdentifier>
								<system value="http://fhir.de/sid/arge-ik/iknr" />
								<value value="121191241" />
							</valueIdentifier>
						</extension>
						<system value="http://fhir.de/sid/arge-ik/iknr" />
						<value value="108035612" />
					</identifier>
					<display value="Verwaltungs-BG" />
				</payor>
			</Coverage>
		</resource>
	</entry>
</Bundle>
