<Bundle xmlns="http://hl7.org/fhir">
	<id value="ec6059d9-72a0-4ba3-8535-6ffcc0c4279b" />
	<meta>
		<lastUpdated value="2022-05-20T08:30:00Z" />
		<profile value="https://fhir.kbv.de/StructureDefinition/KBV_PR_ERP_Bundle|1.1.0" />
	</meta>
	<identifier>
		<system value="https://gematik.de/fhir/erp/NamingSystem/GEM_ERP_NS_PrescriptionId" />
		<value value="160.100.000.000.018.85" />
	</identifier>
	<type value="document" />
	<timestamp value="2022-05-20T08:30:00Z"/>
	<entry>
		<fullUrl value="http://pvs.praxis.local/fhir/Composition/82fd748e-b721-491d-8e7d-681848e49a16" />
		<resource>
			<Composition xmlns="http://hl7.org/fhir">
				<id value="82fd748e-b721-491d-8e7d-681848e49a16" />
				<meta>
					<profile value="https://fhir.kbv.de/StructureDefinition/KBV_PR_ERP_Composition|1.1.0" />
				</meta>
				<extension url="https://fhir.kbv.de/StructureDefinition/KBV_EX_FOR_Legal_basis">
					<valueCoding>
						<system value="https://fhir.kbv.de/CodeSystem/KBV_CS_SFHIR_KBV_STATUSKENNZEICHEN" />
						<code value="00" />
					</valueCoding>
				</extension>
				<status value="final" />
				<type>
					<coding>
						<system value="https://fhir.kbv.de/CodeSystem/KBV_CS_SFHIR_KBV_FORMULAR_ART" />
						<code value="e16A" />
					</coding>
				</type>
				<subject>
					<reference value="Patient/30635f5d-c233-4500-94e8-6414940236aa" />
				</subject>
				<date value="2022-05-20T08:00:00Z"/>
				<author>
					<reference value="Practitioner/667ffd79-42a3-4002-b7ca-6b9098f20ccb" />
					<type value="Practitioner" />
				</author>
				<author>
					<type value="Device" />
					<identifier>
						<system value="https://fhir.kbv.de/NamingSystem/KBV_NS_FOR_Pruefnummer" />
						<value value="Y/400/2107/36/999" />
					</identifier>
				</author>
				<title value="elektronische Arzneimittelverordnung" />
				<attester>
					<mode value="legal" />
					<party>
						<reference value="Practitioner/d6f3b55d-3095-4655-96dc-da3bec21271c" />
					</party>
				</attester>
				<custodian>
					<reference value="Organization/2a555cd3-0543-483c-88b3-f68647620962" />
				</custodian>
				<section>
					<code>
						<coding>
							<system value="https://fhir.kbv.de/CodeSystem/KBV_CS_ERP_Section_Type" />
							<code value="Prescription" />
						</coding>
					</code>
					<entry>
						<!-- Referenz auf Verordnung (MedicationRequest) -->
						<reference value="MedicationRequest/b12e7181-39dd-4864-a63f-74bb81d643a1" />
					</entry>
				</section>
				<section>
					<code>
						<coding>
							<system value="https://fhir.kbv.de/CodeSystem/KBV_CS_ERP_Section_Type" />
							<code value="Coverage" />
						</coding>
					</code>
					<entry>
						<!-- Referenz auf Krankenkasse/KostentrĂ¤ger  -->
						<reference value="Coverage/e51239e1-ba74-48e0-97fb-9754d2b05c60" />
					</entry>
				</section>
			</Composition>
		</resource>
	</entry>
	<entry>
		<fullUrl value="http://pvs.praxis.local/fhir/MedicationRequest/b12e7181-39dd-4864-a63f-74bb81d643a1" />
		<resource>
			<MedicationRequest xmlns="http://hl7.org/fhir">
				<id value="b12e7181-39dd-4864-a63f-74bb81d643a1" />
				<meta>
					<profile value="https://fhir.kbv.de/StructureDefinition/KBV_PR_ERP_Prescription|1.1.0" />
				</meta>
				<extension url="https://fhir.kbv.de/StructureDefinition/KBV_EX_FOR_StatusCoPayment">
					<valueCoding>
						<system value="https://fhir.kbv.de/CodeSystem/KBV_CS_FOR_StatusCoPayment" />
						<code value="0" />
					</valueCoding>
				</extension>
				<extension url="https://fhir.kbv.de/StructureDefinition/KBV_EX_ERP_EmergencyServicesFee">
					<valueBoolean value="false" />
				</extension>
				<extension url="https://fhir.kbv.de/StructureDefinition/KBV_EX_ERP_BVG">
					<valueBoolean value="false" />
				</extension>
				<extension url="https://fhir.kbv.de/StructureDefinition/KBV_EX_ERP_Multiple_Prescription">
					<extension url="Kennzeichen">
						<valueBoolean value="false" />
					</extension>
				</extension>
				<status value="active" />
				<intent value="order" />
				<medicationReference>
					<reference value="Medication/aad9fb8b-2ec2-4cda-874a-82565c9d45ef" />
				</medicationReference>
				<subject>
					<reference value="Patient/30635f5d-c233-4500-94e8-6414940236aa" />
				</subject>
				<authoredOn value="2022-05-20" />
				<requester>
					<reference value="Practitioner/667ffd79-42a3-4002-b7ca-6b9098f20ccb" />
				</requester>
				<insurance>
					<reference value="Coverage/e51239e1-ba74-48e0-97fb-9754d2b05c60" />
				</insurance>
				<dosageInstruction>
					<extension url="https://fhir.kbv.de/StructureDefinition/KBV_EX_ERP_DosageFlag">
						<valueBoolean value="false" />
					</extension>
				</dosageInstruction>
				<dispenseRequest>
					<quantity>
						<value value="1" />
						<system value="http://unitsofmeasure.org" />
						<code value="{Package}" />
					</quantity>
				</dispenseRequest>
			</MedicationRequest>
		</resource>
	</entry>
	<entry>
		<fullUrl value="http://pvs.praxis.local/fhir/Medication/aad9fb8b-2ec2-4cda-874a-82565c9d45ef" />
		<resource>
			<Medication xmlns="http://hl7.org/fhir">
				<id value="aad9fb8b-2ec2-4cda-874a-82565c9d45ef" />
				<meta>
					<profile value="https://fhir.kbv.de/StructureDefinition/KBV_PR_ERP_Medication_Ingredient|1.1.0" />
				</meta>
				<extension url="https://fhir.kbv.de/StructureDefinition/KBV_EX_ERP_Medication_Category">
					<valueCoding>
						<system value="https://fhir.kbv.de/CodeSystem/KBV_CS_ERP_Medication_Category" />
						<code value="00" />
					</valueCoding>
				</extension>
				<extension url="https://fhir.kbv.de/StructureDefinition/KBV_EX_ERP_Medication_Vaccine">
					<valueBoolean value="false" />
				</extension>
				<code>
					<coding>
						<system value="https://fhir.kbv.de/CodeSystem/KBV_CS_ERP_Medication_Type" />
						<code value="wirkstoff" />
					</coding>
				</code>
				<form>
					<text value="Tabletten" />
				</form>
				<amount>
					<numerator>
						<extension url="https://fhir.kbv.de/StructureDefinition/KBV_EX_ERP_Medication_PackagingSize">
							<valueString value="20" />
						</extension>
						<unit value="Stück" />
					</numerator>
					<denominator>
						<value value="1" />
					</denominator>
				</amount>
				<ingredient>
					<itemCodeableConcept>
						<coding>
							<system value="http://fhir.de/CodeSystem/ask" />
							<code value="5682" />
						</coding>
						<text value="Ibuprofen" />
					</itemCodeableConcept>
					<strength>
						<numerator>
							<value value="600" />
							<unit value="mg" />
						</numerator>
						<denominator>
							<value value="1" />
						</denominator>
					</strength>
				</ingredient>
			</Medication>
		</resource>
	</entry>
	<entry>
		<fullUrl value="http://pvs.praxis.local/fhir/Patient/30635f5d-c233-4500-94e8-6414940236aa" />
		<resource>
			<Patient xmlns="http://hl7.org/fhir">
    <id value="30635f5d-c233-4500-94e8-6414940236aa" />
    <meta>
					<profile value="https://fhir.kbv.de/StructureDefinition/KBV_PR_FOR_Patient|1.1.0" />
    </meta>
    <identifier>
        <type>
            <coding>
                <system value="http://fhir.de/CodeSystem/identifier-type-de-basis" />
                <code value="GKV" />
            </coding>
        </type>
					<system value="http://fhir.de/sid/gkv/kvid-10" />
        <value value="K220645122" />
    </identifier>
    <name>
        <use value="official" />
        <family value="Schuhmann">
            <extension url="http://hl7.org/fhir/StructureDefinition/humanname-own-name">
                <valueString value="Schuhmann" />
            </extension>
        </family>
        <given value="Sahra" />
    </name>
    <birthDate value="1970-12-24" />
    <address>
        <type value="both" />
        <line value="Berliner Straße 1">
            <extension url="http://hl7.org/fhir/StructureDefinition/iso21090-ADXP-houseNumber">
                <valueString value="1" />
            </extension>
            <extension url="http://hl7.org/fhir/StructureDefinition/iso21090-ADXP-streetName">
                <valueString value="Berliner Straße" />
            </extension>
        </line>
        <city value="Husum" />
        <postalCode value="25813" />
		<country value="D" />
    </address>
</Patient>
		</resource>
	</entry>
	<entry>
		<fullUrl value="http://pvs.praxis.local/fhir/Practitioner/667ffd79-42a3-4002-b7ca-6b9098f20ccb" />
		<resource>
			<Practitioner xmlns="http://hl7.org/fhir">
				<id value="667ffd79-42a3-4002-b7ca-6b9098f20ccb" />
				<meta>
					<profile value="https://fhir.kbv.de/StructureDefinition/KBV_PR_FOR_Practitioner|1.1.0" />
				</meta>
				<identifier>
					<type>
						<coding>
							<system value="http://terminology.hl7.org/CodeSystem/v2-0203" />
							<code value="LANR" />
						</coding>
					</type>
					<system value="https://fhir.kbv.de/NamingSystem/KBV_NS_Base_ANR" />
					<value value="987654423" />
				</identifier>
				<name>
					<use value="official" />
					<family value="Schneider">
						<extension url="http://hl7.org/fhir/StructureDefinition/humanname-own-name">
							<valueString value="Schneider" />
						</extension>
					</family>
					<given value="Emma" />
					<prefix value="Dr. med.">
						<extension url="http://hl7.org/fhir/StructureDefinition/iso21090-EN-qualifier">
							<valueCode value="AC" />
						</extension>
					</prefix>
				</name>
				<qualification>
					<code>
						<coding>
							<system value="https://fhir.kbv.de/CodeSystem/KBV_CS_FOR_Qualification_Type" />
							<code value="04" />
						</coding>
					</code>
				</qualification>
				<qualification>
					<code>
						<coding>
							<system value="https://fhir.kbv.de/CodeSystem/KBV_CS_FOR_Berufsbezeichnung" />
							<code value="Berufsbezeichnung" />
						</coding>
						<text value="Fachärztin für Innere Medizin" />
					</code>
				</qualification>
			</Practitioner>
		</resource>
	</entry>
	<entry>
		<fullUrl value="http://pvs.praxis.local/fhir/Organization/2a555cd3-0543-483c-88b3-f68647620962" />
		<resource>
			<Organization xmlns="http://hl7.org/fhir">
				<id value="2a555cd3-0543-483c-88b3-f68647620962" />
				<meta>
					<profile value="https://fhir.kbv.de/StructureDefinition/KBV_PR_FOR_Organization|1.1.0" />
				</meta>
				<identifier>
					<type>
						<coding>
							<system value="http://terminology.hl7.org/CodeSystem/v2-0203" />
							<code value="BSNR" />
						</coding>
					</type>
					<system value="https://fhir.kbv.de/NamingSystem/KBV_NS_Base_BSNR" />
					<value value="724444400" />
				</identifier>
				<name value="Hausarztpraxis" />
				<telecom>
					<system value="phone" />
					<value value="030321654987" />
				</telecom>
				<telecom>
					<system value="email" />
					<value value="hausarztpraxis@e-mail.de" />
				</telecom>
				<address>
					<type value="both" />
					<line value="Herbert-Lewin-Platz 2">
						<extension url="http://hl7.org/fhir/StructureDefinition/iso21090-ADXP-houseNumber">
							<valueString value="2" />
						</extension>
						<extension url="http://hl7.org/fhir/StructureDefinition/iso21090-ADXP-streetName">
							<valueString value="Herbert-Lewin-Platz" />
						</extension>
					</line>
					<line value="Erdgeschoss">
						<extension url="http://hl7.org/fhir/StructureDefinition/iso21090-ADXP-additionalLocator">
							<valueString value="Erdgeschoss" />
						</extension>
					</line>
					<city value="Berlin" />
					<postalCode value="10623" />
					<country value="D" />
				</address>
			</Organization>
		</resource>
	</entry>
	<entry>
		<fullUrl value="http://pvs.praxis.local/fhir/Coverage/e51239e1-ba74-48e0-97fb-9754d2b05c60" />
		<resource>
			<Coverage xmlns="http://hl7.org/fhir">
				<id value="e51239e1-ba74-48e0-97fb-9754d2b05c60" />
				<meta>
					<profile value="https://fhir.kbv.de/StructureDefinition/KBV_PR_FOR_Coverage|1.1.0" />
				</meta>
				<extension url="http://fhir.de/StructureDefinition/gkv/besondere-personengruppe">
					<valueCoding>
						<system value="https://fhir.kbv.de/CodeSystem/KBV_CS_SFHIR_KBV_PERSONENGRUPPE" />
						<code value="00" />
					</valueCoding>
				</extension>
				<extension url="http://fhir.de/StructureDefinition/gkv/dmp-kennzeichen">
					<valueCoding>
						<system value="https://fhir.kbv.de/CodeSystem/KBV_CS_SFHIR_KBV_DMP" />
						<code value="00" />
					</valueCoding>
				</extension>
				<extension url="http://fhir.de/StructureDefinition/gkv/wop">
					<valueCoding>
						<system value="https://fhir.kbv.de/CodeSystem/KBV_CS_SFHIR_ITA_WOP" />
						<code value="01" />
					</valueCoding>
				</extension>
				<extension url="http://fhir.de/StructureDefinition/gkv/versichertenart">
					<valueCoding>
						<system value="https://fhir.kbv.de/CodeSystem/KBV_CS_SFHIR_KBV_VERSICHERTENSTATUS" />
						<code value="1" />
					</valueCoding>
				</extension>
				<status value="active" />
				<type>
					<coding>
						<system value="http://fhir.de/CodeSystem/versicherungsart-de-basis" />
						<code value="GKV" />
					</coding>
				</type>
				<beneficiary>
					<reference value="Patient/30635f5d-c233-4500-94e8-6414940236aa" />
				</beneficiary>
				<payor>
					<identifier>
						<system value="http://fhir.de/sid/arge-ik/iknr" />
						<value value="108018347" />
					</identifier>
					<display value="AOK Baden-Württemberg" />
				</payor>
			</Coverage>
		</resource>
	</entry>
	<entry>
		<fullUrl value="http://pvs.praxis.local/fhir/Practitioner/d6f3b55d-3095-4655-96dc-da3bec21271c" />
		<resource>
			<Practitioner xmlns="http://hl7.org/fhir">
				<id value="d6f3b55d-3095-4655-96dc-da3bec21271c" />
				<meta>
					<profile value="https://fhir.kbv.de/StructureDefinition/KBV_PR_FOR_Practitioner|1.1.0" />
				</meta>
				<identifier>
					<type>
						<coding>
							<system value="http://terminology.hl7.org/CodeSystem/v2-0203" />
							<code value="LANR" />
						</coding>
					</type>
					<system value="https://fhir.kbv.de/NamingSystem/KBV_NS_Base_ANR" />
					<value value="754236701" />
				</identifier>
				<name>
					<use value="official" />
					<family value="Schulz">
						<extension url="http://hl7.org/fhir/StructureDefinition/humanname-own-name">
							<valueString value="Schulz" />
						</extension>
					</family>
					<given value="Ben" />
				</name>
				<qualification>
					<code>
						<coding>
							<system value="https://fhir.kbv.de/CodeSystem/KBV_CS_FOR_Qualification_Type" />
							<code value="00" />
						</coding>
					</code>
				</qualification>
				<qualification>
					<code>
						<coding>
							<system value="https://fhir.kbv.de/CodeSystem/KBV_CS_FOR_Berufsbezeichnung" />
							<code value="Berufsbezeichnung" />
						</coding>
						<text value="Facharzt für Allgemeinmedizin" />
					</code>
				</qualification>
			</Practitioner>
		</resource>
	</entry>
</Bundle>
