{
    "type": "SignAndUploadBundles",
    "payload": [
        [
            {
                "resourceType": "Bundle",
                "id": "0428d416-149e-48a4-977c-394887b3d85c",
                "meta": {
                    "lastUpdated": "2021-04-06T08:30:00Z",
                    "profile": [
                        "https://fhir.kbv.de/StructureDefinition/KBV_PR_ERP_Bundle|1.0.1"
                    ]
                },
                "identifier": {
                    "system": "https://gematik.de/fhir/NamingSystem/PrescriptionID",
                    "value": "160.100.000.000.002.36"
                },
                "type": "document",
                "timestamp": "2021-04-06T08:30:00Z",
                "entry": [
                    {
                        "fullUrl": "http://pvs.praxis.local/fhir/Composition/a054c2f3-0123-4d33-a0b3-bedec2f7d1ea",
                        "resource": {
                            "resourceType": "Composition",
                            "id": "a054c2f3-0123-4d33-a0b3-bedec2f7d1ea",
                            "meta": {
                                "profile": [
                                    "https://fhir.kbv.de/StructureDefinition/KBV_PR_ERP_Composition|1.0.1"
                                ]
                            },
                            "extension": [
                                {
                                    "url": "https://fhir.kbv.de/StructureDefinition/KBV_EX_FOR_Legal_basis",
                                    "valueCoding": {
                                        "system": "https://fhir.kbv.de/CodeSystem/KBV_CS_SFHIR_KBV_STATUSKENNZEICHEN",
                                        "code": "00"
                                    }
                                }
                            ],
                            "status": "final",
                            "type": {
                                "coding": [
                                    {
                                        "system": "https://fhir.kbv.de/CodeSystem/KBV_CS_SFHIR_KBV_FORMULAR_ART",
                                        "code": "e16A"
                                    }
                                ]
                            },
                            "subject": {
                                "reference": "Patient/512ab5bc-a7ab-4fd7-81cc-16a594f747a6"
                            },
                            "date": "2021-04-05T08:00:00Z",
                            "author": [
                                {
                                    "reference": "Practitioner/e33d2afd-44c8-462b-80e5-52dbe5ebf359",
                                    "type": "Practitioner"
                                },
                                {
                                    "type": "Device",
                                    "identifier": {
                                        "system": "https://fhir.kbv.de/NamingSystem/KBV_NS_FOR_Pruefnummer",
                                        "value": "Y/410/2107/36/999"
                                    }
                                }
                            ],
                            "title": "elektronische Arzneimittelverordnung",
                            "custodian": {
                                "reference": "Organization/d2b30a70-9830-4968-ab97-688472b6f9a3"
                            },
                            "section": [
                                {
                                    "code": {
                                        "coding": [
                                            {
                                                "system": "https://fhir.kbv.de/CodeSystem/KBV_CS_ERP_Section_Type",
                                                "code": "Prescription"
                                            }
                                        ]
                                    },
                                    "entry": [
                                        {
                                            "reference": "MedicationRequest/06dc1594-509a-4f4c-ada7-dfd477a02d86"
                                        }
                                    ]
                                },
                                {
                                    "code": {
                                        "coding": [
                                            {
                                                "system": "https://fhir.kbv.de/CodeSystem/KBV_CS_ERP_Section_Type",
                                                "code": "Coverage"
                                            }
                                        ]
                                    },
                                    "entry": [
                                        {
                                            "reference": "Coverage/df0f2536-97b9-4bae-99cc-83ba2e8371e4"
                                        }
                                    ]
                                }
                            ]
                        }
                    },
                    {
                        "fullUrl": "http://pvs.praxis.local/fhir/MedicationRequest/06dc1594-509a-4f4c-ada7-dfd477a02d86",
                        "resource": {
                            "resourceType": "MedicationRequest",
                            "id": "06dc1594-509a-4f4c-ada7-dfd477a02d86",
                            "meta": {
                                "profile": [
                                    "https://fhir.kbv.de/StructureDefinition/KBV_PR_ERP_Prescription|1.0.1"
                                ]
                            },
                            "extension": [
                                {
                                    "url": "https://fhir.kbv.de/StructureDefinition/KBV_EX_ERP_StatusCoPayment",
                                    "valueCoding": {
                                        "system": "https://fhir.kbv.de/CodeSystem/KBV_CS_ERP_StatusCoPayment",
                                        "code": "1"
                                    }
                                },
                                {
                                    "url": "https://fhir.kbv.de/StructureDefinition/KBV_EX_ERP_EmergencyServicesFee",
                                    "valueBoolean": false
                                },
                                {
                                    "url": "https://fhir.kbv.de/StructureDefinition/KBV_EX_ERP_BVG",
                                    "valueBoolean": false
                                },
                                {
                                    "url": "https://fhir.kbv.de/StructureDefinition/KBV_EX_ERP_Multiple_Prescription",
                                    "extension": [
                                        {
                                            "url": "Kennzeichen",
                                            "valueBoolean": false
                                        }
                                    ]
                                }
                            ],
                            "status": "active",
                            "intent": "order",
                            "medicationReference": {
                                "reference": "Medication/f568397d-7ba2-46ac-904b-02caec933b42"
                            },
                            "subject": {
                                "reference": "Patient/512ab5bc-a7ab-4fd7-81cc-16a594f747a6"
                            },
                            "authoredOn": "2020-04-06",
                            "requester": {
                                "reference": "Practitioner/e33d2afd-44c8-462b-80e5-52dbe5ebf359"
                            },
                            "insurance": [
                                {
                                    "reference": "Coverage/df0f2536-97b9-4bae-99cc-83ba2e8371e4"
                                }
                            ],
                            "dosageInstruction": [
                                {
                                    "extension": [
                                        {
                                            "url": "https://fhir.kbv.de/StructureDefinition/KBV_EX_ERP_DosageFlag",
                                            "valueBoolean": true
                                        }
                                    ],
                                    "text": "2mal tägl. 5ml"
                                }
                            ],
                            "dispenseRequest": {
                                "quantity": {
                                    "value": 1,
                                    "system": "http://unitsofmeasure.org",
                                    "code": "{Package}"
                                }
                            },
                            "substitution": {
                                "allowedBoolean": true
                            }
                        }
                    },
                    {
                        "fullUrl": "http://pvs.praxis.local/fhir/Medication/f568397d-7ba2-46ac-904b-02caec933b42",
                        "resource": {
                            "resourceType": "Medication",
                            "id": "f568397d-7ba2-46ac-904b-02caec933b42",
                            "meta": {
                                "profile": [
                                    "https://fhir.kbv.de/StructureDefinition/KBV_PR_ERP_Medication_PZN|1.0.1"
                                ]
                            },
                            "extension": [
                                {
                                    "url": "https://fhir.kbv.de/StructureDefinition/KBV_EX_ERP_Medication_Category",
                                    "valueCoding": {
                                        "system": "https://fhir.kbv.de/CodeSystem/KBV_CS_ERP_Medication_Category",
                                        "code": "00"
                                    }
                                },
                                {
                                    "url": "https://fhir.kbv.de/StructureDefinition/KBV_EX_ERP_Medication_Vaccine",
                                    "valueBoolean": false
                                },
                                {
                                    "url": "http://fhir.de/StructureDefinition/normgroesse",
                                    "valueCode": "N1"
                                }
                            ],
                            "code": {
                                "coding": [
                                    {
                                        "system": "http://fhir.de/CodeSystem/ifa/pzn",
                                        "code": "08585997"
                                    }
                                ],
                                "text": "Prospan® Hustensaft 100ml N1"
                            },
                            "form": {
                                "coding": [
                                    {
                                        "system": "https://fhir.kbv.de/CodeSystem/KBV_CS_SFHIR_KBV_DARREICHUNGSFORM",
                                        "code": "FLE"
                                    }
                                ]
                            }
                        }
                    },
                    {
                        "fullUrl": "http://pvs.praxis.local/fhir/Patient/512ab5bc-a7ab-4fd7-81cc-16a594f747a6",
                        "resource": {
                            "resourceType": "Patient",
                            "id": "512ab5bc-a7ab-4fd7-81cc-16a594f747a6",
                            "meta": {
                                "profile": [
                                    "https://fhir.kbv.de/StructureDefinition/KBV_PR_FOR_Patient|1.0.3"
                                ]
                            },
                            "identifier": [
                                {
                                    "type": {
                                        "coding": [
                                            {
                                                "system": "http://fhir.de/CodeSystem/identifier-type-de-basis",
                                                "code": "GKV"
                                            }
                                        ]
                                    },
                                    "system": "http://fhir.de/NamingSystem/gkv/kvid-10",
                                    "value": "M310119800"
                                }
                            ],
                            "name": [
                                {
                                    "use": "official",
                                    "family": "Erbprinzessin",
                                    "_family": {
                                        "extension": [
                                            {
                                                "url": "http://fhir.de/StructureDefinition/humanname-namenszusatz",
                                                "valueString": "Erbprinzessin"
                                            },
                                            {
                                                "url": "http://hl7.org/fhir/StructureDefinition/humanname-own-prefix",
                                                "valueString": "von und zu der"
                                            },
                                            {
                                                "url": "http://hl7.org/fhir/StructureDefinition/humanname-own-name",
                                                "valueString": "Schimmelpfennig-Hammerschmidt Federmannssohn"
                                            }
                                        ]
                                    },
                                    "given": [
                                        "Ingrid"
                                    ]
                                }
                            ],
                            "birthDate": "2010-01-31",
                            "address": [
                                {
                                    "type": "both",
                                    "line": [
                                        "Anneliese- und Georg-von-Groscurth-Plaetzchen 149-C",
                                        "5. OG - Hinterhof"
                                    ],
                                    "_line": [
                                        {
                                            "extension": [
                                                {
                                                    "url": "http://hl7.org/fhir/StructureDefinition/iso21090-ADXP-houseNumber",
                                                    "valueString": "149-C"
                                                },
                                                {
                                                    "url": "http://hl7.org/fhir/StructureDefinition/iso21090-ADXP-streetName",
                                                    "valueString": "Anneliese- und Georg-von-Groscurth-Plaetzchen"
                                                }
                                            ]
                                        },
                                        {
                                            "extension": [
                                                {
                                                    "url": "http://hl7.org/fhir/StructureDefinition/iso21090-ADXP-additionalLocator",
                                                    "valueString": "5. OG - Hinterhof"
                                                }
                                            ]
                                        }
                                    ],
                                    "city": "Bad Homburg",
                                    "postalCode": "60437",
                                    "country": "D"
                                }
                            ]
                        }
                    },
                    {
                        "fullUrl": "http://pvs.praxis.local/fhir/Practitioner/e33d2afd-44c8-462b-80e5-52dbe5ebf359",
                        "resource": {
                            "resourceType": "Practitioner",
                            "id": "e33d2afd-44c8-462b-80e5-52dbe5ebf359",
                            "meta": {
                                "profile": [
                                    "https://fhir.kbv.de/StructureDefinition/KBV_PR_FOR_Practitioner|1.0.3"
                                ]
                            },
                            "identifier": [
                                {
                                    "type": {
                                        "coding": [
                                            {
                                                "system": "http://terminology.hl7.org/CodeSystem/v2-0203",
                                                "code": "LANR"
                                            }
                                        ]
                                    },
                                    "system": "https://fhir.kbv.de/NamingSystem/KBV_NS_Base_ANR",
                                    "value": "456456534"
                                }
                            ],
                            "name": [
                                {
                                    "use": "official",
                                    "family": "Weber",
                                    "_family": {
                                        "extension": [
                                            {
                                                "url": "http://hl7.org/fhir/StructureDefinition/humanname-own-name",
                                                "valueString": "Weber"
                                            }
                                        ]
                                    },
                                    "given": [
                                        "Maximilian"
                                    ],
                                    "prefix": [
                                        "Dr."
                                    ],
                                    "_prefix": [
                                        {
                                            "extension": [
                                                {
                                                    "url": "http://hl7.org/fhir/StructureDefinition/iso21090-EN-qualifier",
                                                    "valueCode": "AC"
                                                }
                                            ]
                                        }
                                    ]
                                }
                            ],
                            "qualification": [
                                {
                                    "code": {
                                        "coding": [
                                            {
                                                "system": "https://fhir.kbv.de/CodeSystem/KBV_CS_FOR_Qualification_Type",
                                                "code": "00"
                                            }
                                        ]
                                    }
                                },
                                {
                                    "code": {
                                        "text": "Facharzt für Kinder- und Jugendmedizin"
                                    }
                                }
                            ]
                        }
                    },
                    {
                        "fullUrl": "http://pvs.praxis.local/fhir/Organization/d2b30a70-9830-4968-ab97-688472b6f9a3",
                        "resource": {
                            "resourceType": "Organization",
                            "id": "d2b30a70-9830-4968-ab97-688472b6f9a3",
                            "meta": {
                                "profile": [
                                    "https://fhir.kbv.de/StructureDefinition/KBV_PR_FOR_Organization|1.0.3"
                                ]
                            },
                            "identifier": [
                                {
                                    "type": {
                                        "coding": [
                                            {
                                                "system": "http://terminology.hl7.org/CodeSystem/v2-0203",
                                                "code": "BSNR"
                                            }
                                        ]
                                    },
                                    "system": "https://fhir.kbv.de/NamingSystem/KBV_NS_Base_BSNR",
                                    "value": "687777700"
                                }
                            ],
                            "name": "Kinderarztpraxis",
                            "telecom": [
                                {
                                    "system": "phone",
                                    "value": "09411234567"
                                }
                            ],
                            "address": [
                                {
                                    "type": "both",
                                    "line": [
                                        "Yorckstraße 15",
                                        "Hinterhaus"
                                    ],
                                    "_line": [
                                        {
                                            "extension": [
                                                {
                                                    "url": "http://hl7.org/fhir/StructureDefinition/iso21090-ADXP-houseNumber",
                                                    "valueString": "15"
                                                },
                                                {
                                                    "url": "http://hl7.org/fhir/StructureDefinition/iso21090-ADXP-streetName",
                                                    "valueString": "Yorckstraße"
                                                }
                                            ]
                                        },
                                        {
                                            "extension": [
                                                {
                                                    "url": "http://hl7.org/fhir/StructureDefinition/iso21090-ADXP-additionalLocator",
                                                    "valueString": "Hinterhaus"
                                                }
                                            ]
                                        }
                                    ],
                                    "city": "Regensburg",
                                    "postalCode": "93049",
                                    "country": "D"
                                }
                            ]
                        }
                    },
                    {
                        "fullUrl": "http://pvs.praxis.local/fhir/Coverage/df0f2536-97b9-4bae-99cc-83ba2e8371e4",
                        "resource": {
                            "resourceType": "Coverage",
                            "id": "df0f2536-97b9-4bae-99cc-83ba2e8371e4",
                            "meta": {
                                "profile": [
                                    "https://fhir.kbv.de/StructureDefinition/KBV_PR_FOR_Coverage|1.0.3"
                                ]
                            },
                            "extension": [
                                {
                                    "url": "http://fhir.de/StructureDefinition/gkv/besondere-personengruppe",
                                    "valueCoding": {
                                        "system": "https://fhir.kbv.de/CodeSystem/KBV_CS_SFHIR_KBV_PERSONENGRUPPE",
                                        "code": "00"
                                    }
                                },
                                {
                                    "url": "http://fhir.de/StructureDefinition/gkv/dmp-kennzeichen",
                                    "valueCoding": {
                                        "system": "https://fhir.kbv.de/CodeSystem/KBV_CS_SFHIR_KBV_DMP",
                                        "code": "00"
                                    }
                                },
                                {
                                    "url": "http://fhir.de/StructureDefinition/gkv/wop",
                                    "valueCoding": {
                                        "system": "https://fhir.kbv.de/CodeSystem/KBV_CS_SFHIR_ITA_WOP",
                                        "code": "72"
                                    }
                                },
                                {
                                    "url": "http://fhir.de/StructureDefinition/gkv/versichertenart",
                                    "valueCoding": {
                                        "system": "https://fhir.kbv.de/CodeSystem/KBV_CS_SFHIR_KBV_VERSICHERTENSTATUS",
                                        "code": "3"
                                    }
                                }
                            ],
                            "status": "active",
                            "type": {
                                "coding": [
                                    {
                                        "system": "http://fhir.de/CodeSystem/versicherungsart-de-basis",
                                        "code": "GKV"
                                    }
                                ]
                            },
                            "beneficiary": {
                                "reference": "Patient/512ab5bc-a7ab-4fd7-81cc-16a594f747a6"
                            },
                            "period": {
                                "end": "2040-04-01"
                            },
                            "payor": [
                                {
                                    "identifier": {
                                        "system": "http://fhir.de/NamingSystem/arge-ik/iknr",
                                        "value": "108416214"
                                    },
                                    "display": "AOK Bayern"
                                }
                            ]
                        }
                    }
                ]
            }
        ]
    ],
    "runtimeConfig": {
        "eHBAHandle": "1-1-ARZT-WaltrautFinkengrund01",
        "SMCBHandle": "1-2-ARZT-WaltrautDrombusch01",
        "connector.base-url": "https://kon-instanz2.titus.ti-dienste.de",
        "connector.client-certificate": "data:application/x-pkcs12;base64,",
        "connector.client-certificate-password": "00",
        "connector.client-system-id": "Incentergy",
        "connector.mandant-id": "1786_A1",
        "connector.version": "PTV4+",
        "connector.workplace-id": "Incentergy"
    }
}